Sample;MgB2
V-V length(cm);0.500000
Field (T);0.000000
Temp (K);20.000000
Estimated Ic, n0.0000000.0000000.0000000.0000000.0000000.0000000.0000000.0000000.0000000.0000000.0000000.0000000.0000000.0000000.0000000.0000000.0000000.0000000.0000000.0000000.0000000.0000000.0000000.0000000.0000000.0000000.0000000.0000000.0000000.0000000.0000000.0000000.0000000.0000000.0000000.0000000.0000000.0000000.0000000.0000000.0000000.0000000.0000000.0000000.0000000.0000000.0000000.0000000.0000000.0000000.0000000.0000000.0000000.0000000.0000000.0000000.0000000.0000000.0000000.0000000.0000000.0000000.0000000.0000000.0000000.0000000.0000000.0000000.0000000.0000000.0000000.0000000.0000000.0000000.0000000.0000000.0000000.0000000.0000000.0000000.0000000.0000000.0000000.0000000.0000000.0000000.0000000.0000000.0000000.0000000.0000000.0000000.0000000.0000000.0000000.0000000.0000000.0000000.0000000.0000000.0000000.0000000.0000000.0000000.0000000.0000000.0000000.0000000.0000000.0000000.0000000.0000000.0000001.6504810.0000000.0000000.0000000.0000000.0000000.0000000.0000000.0000000.0000000.0000000.0000000.0000000.0000000.0000000.0000000.0000000.0000000.0000000.0000000.0000000.0000000.0000000.0000000.0000000.0000000.0000000.0000000.0000000.0000000.0000000.0000000.0000000.0000000.0000000.0000000.0000000.0000000.0000000.0000000.0000000.0000000.0000000.0000000.0000000.0000000.0000000.0000000.0000000.0000000.0000000.0000000.00000012.9283409.038515Time	Current	Voltage
(sec)	A (50mV/300A)	uV
0.000	-0.011	0.000	324.999	330.131	0.000
0.091	-0.011	0.018	324.999	330.131	0.000
0.100	-0.011	0.018	324.999	330.131	0.000
0.180	-0.011	0.015	324.999	330.131	0.000
0.189	-0.011	0.015	324.999	330.131	0.000
0.270	-0.011	0.018	324.999	330.131	0.000
0.279	-0.011	0.018	324.999	330.131	0.000
0.360	-0.011	0.018	324.999	330.131	0.000
0.369	-0.011	0.018	324.999	330.131	0.000
0.451	-0.011	0.011	324.999	330.131	0.000
0.459	-0.011	0.011	324.999	330.131	0.000
0.573	-0.011	0.023	324.999	330.131	0.000
0.589	-0.011	0.023	324.999	330.131	0.000
0.671	-0.011	0.014	324.999	330.131	0.000
0.686	-0.011	0.014	324.999	330.131	0.000
0.770	-0.011	0.053	324.999	330.131	0.000
0.786	-0.011	0.053	324.999	330.131	0.000
0.870	-0.011	0.021	324.999	330.131	0.000
0.878	-0.011	0.021	324.999	330.131	0.000
0.961	-0.011	0.021	324.999	330.131	0.000
0.970	-0.011	0.021	324.999	330.131	0.000
1.081	-0.011	0.007	324.999	330.131	0.000
1.090	-0.011	0.007	324.999	330.131	0.000
1.170	-0.011	0.047	324.999	330.131	0.000
1.179	-0.011	0.047	324.999	330.131	0.000
1.261	-0.011	0.017	324.999	330.131	0.000
1.270	-0.011	0.017	324.999	330.131	0.000
1.351	-0.011	0.033	324.999	330.131	0.000
1.359	-0.011	0.033	324.999	330.131	0.000
1.440	-0.011	0.042	324.999	330.131	0.000
1.448	-0.011	0.042	324.999	330.131	0.000
1.561	-0.011	0.059	324.999	330.131	0.000
1.575	-0.011	0.059	324.999	330.131	0.000
1.660	-0.010	0.043	324.999	330.131	0.000
1.673	-0.010	0.043	324.999	330.131	0.000
1.756	0.158	0.048	324.999	330.131	0.000
1.771	0.158	0.048	324.999	330.131	0.000
1.850	0.252	0.053	324.999	330.131	0.000
1.860	0.252	0.053	324.999	330.131	0.000
1.940	0.312	0.042	324.999	330.131	0.000
1.949	0.312	0.042	324.999	330.131	0.000
2.061	0.374	0.059	324.999	330.131	0.000
2.070	0.374	0.059	324.999	330.131	0.000
2.150	0.438	0.040	324.999	330.131	0.000
2.159	0.438	0.040	324.999	330.131	0.000
2.241	0.493	0.048	324.999	330.131	0.000
2.250	0.493	0.048	324.999	330.131	0.000
2.331	0.540	0.008	324.999	330.131	0.000
2.340	0.540	0.008	324.999	330.131	0.000
2.421	0.588	0.027	324.999	330.131	0.000
2.430	0.588	0.027	324.999	330.131	0.000
2.541	0.632	0.012	324.999	330.131	0.000
2.555	0.632	0.012	324.999	330.131	0.000
2.638	0.682	0.083	324.999	330.131	0.000
2.652	0.682	0.083	324.999	330.131	0.000
2.730	0.721	0.068	324.999	330.131	0.000
2.744	0.721	0.068	324.999	330.131	0.000
2.827	0.758	0.080	324.999	330.131	0.000
2.835	0.758	0.080	324.999	330.131	0.000
2.920	0.800	0.082	324.999	330.131	0.000
2.929	0.800	0.082	324.999	330.131	0.000
3.041	0.824	0.078	324.999	330.131	0.000
3.050	0.824	0.078	324.999	330.131	0.000
3.131	0.875	0.062	324.999	330.131	0.000
3.140	0.875	0.062	324.999	330.131	0.000
3.220	0.880	0.063	324.999	330.131	0.000
3.229	0.880	0.063	324.999	330.131	0.000
3.310	0.932	0.066	324.999	330.131	0.000
3.320	0.932	0.066	324.999	330.131	0.000
3.400	0.949	0.047	324.999	330.131	0.000
3.409	0.949	0.047	324.999	330.131	0.000
3.524	0.997	0.068	324.999	330.131	0.000
3.538	0.997	0.068	324.999	330.131	0.000
3.621	1.013	0.070	324.999	330.131	0.000
3.634	1.013	0.070	324.999	330.131	0.000
3.717	1.064	0.081	324.999	330.131	0.000
3.731	1.064	0.081	324.999	330.131	0.000
3.811	1.079	0.087	324.999	330.131	0.000
3.819	1.079	0.087	324.999	330.131	0.000
3.900	1.130	0.090	324.999	330.131	0.000
3.909	1.130	0.090	324.999	330.131	0.000
4.021	1.142	0.075	324.999	330.131	0.000
4.030	1.142	0.075	324.999	330.131	0.000
4.111	1.189	0.098	324.999	330.131	0.000
4.120	1.189	0.098	324.999	330.131	0.000
4.201	1.206	0.077	324.999	330.131	0.000
4.210	1.206	0.077	324.999	330.131	0.000
4.291	1.254	0.124	324.999	330.131	0.000
4.300	1.254	0.124	324.999	330.131	0.000
4.381	1.268	0.095	324.999	330.131	0.000
4.390	1.268	0.095	324.999	330.131	0.000
4.502	1.318	0.105	324.999	330.131	0.000
4.516	1.318	0.105	324.999	330.131	0.000
4.601	1.331	0.099	324.999	330.131	0.000
4.614	1.331	0.099	324.999	330.131	0.000
4.698	1.382	0.145	324.999	330.131	0.000
4.711	1.382	0.145	324.999	330.131	0.000
4.791	1.393	0.123	324.999	330.131	0.000
4.799	1.393	0.123	324.999	330.131	0.000
4.880	1.434	0.153	324.999	330.131	0.000
4.888	1.434	0.153	324.999	330.131	0.000
5.002	1.489	0.193	324.999	330.131	0.000
5.011	1.489	0.193	324.999	330.131	0.000
5.092	1.516	0.211	324.999	330.131	0.000
5.100	1.516	0.211	324.999	330.131	0.000
5.180	1.549	0.261	324.999	330.131	0.000
5.189	1.549	0.261	324.999	330.131	0.000
5.271	1.577	0.273	324.999	330.131	0.000
5.279	1.577	0.273	324.999	330.131	0.000
5.361	1.610	0.368	324.999	330.131	0.000
5.369	1.610	0.368	324.999	330.131	0.000
5.482	1.637	0.409	324.999	330.131	0.000
5.496	1.637	0.409	324.999	330.131	0.000
5.578	1.670	0.637	324.999	330.131	0.000
5.590	1.670	0.637	324.999	330.131	0.000
5.671	1.699	0.667	324.999	330.131	0.000
5.684	1.699	0.667	324.999	330.131	0.000
5.767	1.732	1.027	324.999	330.131	0.000
5.776	1.732	1.027	324.999	330.131	0.000
5.861	1.759	1.148	324.999	330.131	0.000
5.870	1.759	1.148	324.999	330.131	0.000
5.981	1.791	1.513	324.999	330.131	0.000
5.990	1.791	1.513	324.999	330.131	0.000
6.071	1.820	1.866	324.999	330.131	0.000
6.081	1.820	1.866	324.999	330.131	0.000
6.161	1.853	2.395	324.999	330.131	0.000
6.170	1.853	2.395	324.999	330.131	0.000
6.251	1.880	2.844	324.999	330.131	0.000
6.259	1.880	2.844	324.999	330.131	0.000
6.342	1.911	3.462	324.999	330.131	0.000
6.349	1.911	3.462	324.999	330.131	0.000
6.463	1.941	4.026	324.999	330.131	0.000
6.476	1.941	4.026	324.999	330.131	0.000
6.561	1.984	5.140	324.999	330.131	0.000
6.574	1.984	5.140	324.999	330.131	0.000
6.658	1.999	5.489	324.999	330.131	0.000
6.671	1.999	5.489	324.999	330.131	0.000
6.750	2.037	6.506	324.999	330.131	0.000
6.759	2.037	6.506	324.999	330.131	0.000
6.841	2.060	7.167	324.999	330.131	0.000
6.849	2.060	7.167	324.999	330.131	0.000
6.962	2.084	7.914	324.999	330.131	0.000
6.971	2.084	7.914	324.999	330.131	0.000
7.051	2.121	8.990	324.999	330.131	0.000
7.060	2.121	8.990	324.999	330.131	0.000
7.142	2.152	9.998	324.999	330.131	0.000
7.150	2.152	9.998	324.999	330.131	0.000
7.231	2.181	10.907	324.999	330.131	0.000
7.240	2.181	10.907	324.999	330.131	0.000
7.321	2.193	11.338	324.999	330.131	0.000
7.330	2.193	11.338	324.999	330.131	0.000
7.444	2.242	12.959	324.999	330.131	0.000
7.453	2.242	12.959	324.999	330.131	0.000
7.537	2.253	13.330	324.999	330.131	0.000
7.567	2.253	13.330	324.999	330.131	0.000
7.632	2.302	15.063	324.999	330.131	0.000
7.650	2.302	15.063	324.999	330.131	0.000
7.726	2.332	16.173	324.999	330.131	0.000
7.753	2.332	16.173	324.999	330.131	0.000
7.818	2.363	17.301	324.999	330.131	0.000
7.826	2.363	17.301	324.999	330.131	0.000
7.944	2.398	18.578	324.999	330.131	0.000
7.952	2.398	18.578	324.999	330.131	0.000
8.032	2.423	19.511	324.999	330.131	0.000
8.041	2.423	19.511	324.999	330.131	0.000
8.121	2.454	20.666	324.999	330.131	0.000
