Sample;MgB2
V-V length(cm);0.500000
Field (T);0.000000
Temp (K);20.000000
Estimated Ic, n0.0000000.0000000.0000000.0000000.0000000.0000000.0000000.0000000.0000000.0000000.0000000.0000000.0000000.0000000.0000000.0000000.0000000.0000000.0000000.0000000.0000000.0000000.0000000.0000000.0000000.0000000.0000000.0000000.0000000.0000000.0000000.0000000.0000000.0000000.0000000.0000000.0000000.0000000.0000000.0000000.0000000.0000000.0000000.0000000.0000000.0000000.0000000.0000000.0000000.0000000.0000000.0000000.0000000.0000000.0000000.0000000.0000000.0000000.0000000.0000000.0000000.0000000.0000000.0000000.0000000.0000000.0000000.0000000.0000000.0000000.0000000.0000000.0000000.0000000.0000000.0000000.0000000.0000000.0000000.0000000.0000000.0000000.0000000.0000000.0000000.0000000.0000000.0000000.0000000.0000000.0000000.0000000.0000000.0000000.0000000.0000000.0000000.0000000.0000000.0000000.0000000.0000000.0000000.0000000.0000000.0000000.0000000.0000000.0000000.0000000.0000000.0000000.0000000.0000000.0000000.0000000.0000000.0000000.0000000.0000000.0000000.0000000.0000000.0000000.0000000.0000000.0000000.0000000.0000000.0000000.0000000.0000000.0000000.0000000.0000000.0000000.0000000.0000000.0000000.0000000.0000000.0000000.0000000.0000000.0000000.0000000.0000000.0000000.0000000.0000000.00000017.9809700.0000000.0000000.0000000.0000000.0000000.0000000.0000000.0000000.0000000.0000000.0000000.0000000.0000000.0000000.0000000.0000000.0000000.0000000.0000000.0000000.0000000.0000000.0000000.0000000.0000000.0000000.0000000.0000000.0000000.0000000.0000000.00000020.4561036.025603Time	Current	Voltage
(sec)	A (50mV/300A)	uV
0.000	-0.010	0.016	324.999	330.131	0.000
0.086	-0.010	0.007	324.999	330.131	0.000
0.095	-0.010	0.007	324.999	330.131	0.000
0.175	-0.010	0.007	324.999	330.131	0.000
0.182	-0.010	0.007	324.999	330.131	0.000
0.266	-0.010	0.016	324.999	330.131	0.000
0.275	-0.010	0.016	324.999	330.131	0.000
0.356	-0.010	0.013	324.999	330.131	0.000
0.364	-0.010	0.013	324.999	330.131	0.000
0.476	-0.010	-0.002	324.999	330.131	0.000
0.485	-0.010	-0.002	324.999	330.131	0.000
0.566	0.516	0.036	324.999	330.131	0.000
0.574	0.516	0.036	324.999	330.131	0.000
0.656	0.827	0.081	324.999	330.131	0.000
0.670	0.827	0.081	324.999	330.131	0.000
0.752	1.184	0.065	324.999	330.131	0.000
0.766	1.184	0.065	324.999	330.131	0.000
0.852	1.505	0.068	324.999	330.131	0.000
0.866	1.505	0.068	324.999	330.131	0.000
0.976	1.799	0.039	324.999	330.131	0.000
0.985	1.799	0.039	324.999	330.131	0.000
1.065	2.073	0.064	324.999	330.131	0.000
1.073	2.073	0.064	324.999	330.131	0.000
1.156	2.363	0.048	324.999	330.131	0.000
1.164	2.363	0.048	324.999	330.131	0.000
1.246	2.621	0.026	324.999	330.131	0.000
1.254	2.621	0.026	324.999	330.131	0.000
1.336	2.879	0.019	324.999	330.131	0.000
1.345	2.879	0.019	324.999	330.131	0.000
1.456	3.155	-0.003	324.999	330.131	0.000
1.465	3.155	-0.003	324.999	330.131	0.000
1.546	3.420	0.028	324.999	330.131	0.000
1.555	3.420	0.028	324.999	330.131	0.000
1.636	3.680	0.036	324.999	330.131	0.000
1.650	3.680	0.036	324.999	330.131	0.000
1.732	3.934	0.026	324.999	330.131	0.000
1.744	3.934	0.026	324.999	330.131	0.000
1.826	4.206	0.030	324.999	330.131	0.000
1.839	4.206	0.030	324.999	330.131	0.000
1.954	4.374	0.019	324.999	330.131	0.000
1.963	4.374	0.019	324.999	330.131	0.000
2.047	4.704	0.077	324.999	330.131	0.000
2.056	4.704	0.077	324.999	330.131	0.000
2.136	4.909	0.047	324.999	330.131	0.000
2.145	4.909	0.047	324.999	330.131	0.000
2.227	5.187	0.024	324.999	330.131	0.000
2.236	5.187	0.024	324.999	330.131	0.000
2.316	5.430	0.017	324.999	330.131	0.000
2.325	5.430	0.017	324.999	330.131	0.000
2.437	5.682	0.023	324.999	330.131	0.000
2.445	5.682	0.023	324.999	330.131	0.000
2.526	5.917	0.056	324.999	330.131	0.000
2.535	5.917	0.056	324.999	330.131	0.000
2.617	6.176	0.066	324.999	330.131	0.000
2.631	6.176	0.066	324.999	330.131	0.000
2.713	6.424	0.064	324.999	330.131	0.000
2.726	6.424	0.064	324.999	330.131	0.000
2.806	6.682	0.056	324.999	330.131	0.000
2.820	6.682	0.056	324.999	330.131	0.000
2.937	6.904	0.049	324.999	330.131	0.000
2.946	6.904	0.049	324.999	330.131	0.000
3.026	7.154	0.088	324.999	330.131	0.000
3.036	7.154	0.088	324.999	330.131	0.000
3.117	7.395	0.087	324.999	330.131	0.000
3.126	7.395	0.087	324.999	330.131	0.000
3.207	7.632	0.063	324.999	330.131	0.000
3.215	7.632	0.063	324.999	330.131	0.000
3.297	7.885	0.065	324.999	330.131	0.000
3.305	7.885	0.065	324.999	330.131	0.000
3.418	8.083	0.051	324.999	330.131	0.000
3.426	8.083	0.051	324.999	330.131	0.000
3.506	8.369	0.096	324.999	330.131	0.000
3.515	8.369	0.096	324.999	330.131	0.000
3.597	8.567	0.054	324.999	330.131	0.000
3.606	8.567	0.054	324.999	330.131	0.000
3.693	8.852	0.030	324.999	330.131	0.000
3.711	8.852	0.030	324.999	330.131	0.000
3.788	9.042	0.032	324.999	330.131	0.000
3.803	9.042	0.032	324.999	330.131	0.000
3.913	9.336	0.041	324.999	330.131	0.000
3.941	9.336	0.041	324.999	330.131	0.000
4.008	9.551	0.092	324.999	330.131	0.000
4.017	9.551	0.092	324.999	330.131	0.000
4.097	9.812	0.083	324.999	330.131	0.000
4.106	9.812	0.083	324.999	330.131	0.000
4.188	10.006	0.048	324.999	330.131	0.000
4.196	10.006	0.048	324.999	330.131	0.000
4.278	10.309	0.054	324.999	330.131	0.000
4.287	10.309	0.054	324.999	330.131	0.000
4.399	10.540	0.061	324.999	330.131	0.000
4.408	10.540	0.061	324.999	330.131	0.000
4.488	10.779	0.065	324.999	330.131	0.000
4.496	10.779	0.065	324.999	330.131	0.000
4.578	11.027	0.061	324.999	330.131	0.000
4.586	11.027	0.061	324.999	330.131	0.000
4.668	11.271	0.058	324.999	330.131	0.000
4.682	11.271	0.058	324.999	330.131	0.000
4.764	11.515	0.054	324.999	330.131	0.000
4.776	11.515	0.054	324.999	330.131	0.000
4.889	11.775	0.054	324.999	330.131	0.000
4.903	11.775	0.054	324.999	330.131	0.000
4.988	12.019	0.077	324.999	330.131	0.000
4.996	12.019	0.077	324.999	330.131	0.000
5.078	12.243	0.078	324.999	330.131	0.000
5.087	12.243	0.078	324.999	330.131	0.000
5.168	12.482	0.035	324.999	330.131	0.000
5.176	12.482	0.035	324.999	330.131	0.000
5.257	12.717	0.027	324.999	330.131	0.000
5.266	12.717	0.027	324.999	330.131	0.000
5.380	12.961	0.031	324.999	330.131	0.000
5.388	12.961	0.031	324.999	330.131	0.000
5.468	13.202	0.073	324.999	330.131	0.000
5.477	13.202	0.073	324.999	330.131	0.000
5.558	13.446	0.044	324.999	330.131	0.000
5.567	13.446	0.044	324.999	330.131	0.000
5.649	13.640	0.025	324.999	330.131	0.000
5.663	13.640	0.025	324.999	330.131	0.000
5.745	13.930	0.036	324.999	330.131	0.000
5.757	13.930	0.036	324.999	330.131	0.000
5.870	14.155	0.057	324.999	330.131	0.000
5.884	14.155	0.057	324.999	330.131	0.000
5.966	14.410	0.099	324.999	330.131	0.000
5.974	14.410	0.099	324.999	330.131	0.000
6.059	14.596	0.056	324.999	330.131	0.000
6.067	14.596	0.056	324.999	330.131	0.000
6.148	14.890	0.050	324.999	330.131	0.000
6.157	14.890	0.050	324.999	330.131	0.000
6.240	15.082	0.039	324.999	330.131	0.000
6.248	15.082	0.039	324.999	330.131	0.000
6.359	15.416	0.065	324.999	330.131	0.000
6.368	15.416	0.065	324.999	330.131	0.000
6.448	15.614	0.071	324.999	330.131	0.000
6.456	15.614	0.071	324.999	330.131	0.000
6.540	15.929	0.069	324.999	330.131	0.000
6.549	15.929	0.069	324.999	330.131	0.000
6.629	16.113	0.063	324.999	330.131	0.000
6.643	16.113	0.063	324.999	330.131	0.000
6.726	16.347	0.125	324.999	330.131	0.000
6.738	16.347	0.125	324.999	330.131	0.000
6.851	16.649	0.170	324.999	330.131	0.000
6.865	16.649	0.170	324.999	330.131	0.000
6.949	16.921	0.220	324.999	330.131	0.000
6.957	16.921	0.220	324.999	330.131	0.000
7.039	17.127	0.268	324.999	330.131	0.000
7.048	17.127	0.268	324.999	330.131	0.000
7.129	17.366	0.254	324.999	330.131	0.000
7.138	17.366	0.254	324.999	330.131	0.000
7.220	17.604	0.281	324.999	330.131	0.000
7.228	17.604	0.281	324.999	330.131	0.000
7.341	17.857	0.395	324.999	330.131	0.000
7.350	17.857	0.395	324.999	330.131	0.000
7.429	18.083	0.587	324.999	330.131	0.000
7.438	18.083	0.587	324.999	330.131	0.000
7.518	18.341	0.742	324.999	330.131	0.000
7.527	18.341	0.742	324.999	330.131	0.000
7.609	18.584	0.953	324.999	330.131	0.000
7.623	18.584	0.953	324.999	330.131	0.000
7.706	18.775	1.197	324.999	330.131	0.000
7.719	18.775	1.197	324.999	330.131	0.000
7.830	19.080	1.626	324.999	330.131	0.000
7.845	19.080	1.626	324.999	330.131	0.000
7.927	19.298	2.359	324.999	330.131	0.000
7.936	19.298	2.359	324.999	330.131	0.000
8.019	19.557	3.142	324.999	330.131	0.000
8.028	19.557	3.142	324.999	330.131	0.000
8.109	19.750	3.965	324.999	330.131	0.000
8.118	19.750	3.965	324.999	330.131	0.000
8.200	20.032	5.428	324.999	330.131	0.000
8.208	20.032	5.428	324.999	330.131	0.000
8.321	20.222	6.654	324.999	330.131	0.000
8.329	20.222	6.654	324.999	330.131	0.000
8.410	20.505	9.108	324.999	330.131	0.000
8.419	20.505	9.108	324.999	330.131	0.000
8.500	20.697	11.159	324.999	330.131	0.000
8.509	20.697	11.159	324.999	330.131	0.000
8.590	20.999	15.097	324.999	330.131	0.000
8.599	20.999	15.097	324.999	330.131	0.000
8.680	21.238	18.906	324.999	330.131	0.000
8.694	21.238	18.906	324.999	330.131	0.000
8.807	21.482	24.226	324.999	330.131	0.000
8.820	21.482	24.226	324.999	330.131	0.000
8.899	21.734	28.928	324.999	330.131	0.000
8.913	21.734	28.928	324.999	330.131	0.000
8.996	21.969	35.489	324.999	330.131	0.000
