Sample;MgB2
V-V length(cm);0.500000
Field (T);0.000000
Temp (K);20.000000
Estimated Ic, n0.0000000.0000000.0000000.0000000.0000000.0000000.0000000.0000000.0000000.0000000.0000000.0000000.0000000.0000000.0000000.0000000.0000000.0000000.0000000.0000000.0000000.0000000.0000000.0000000.0000000.0000000.0000000.0000000.0000000.0000000.0000000.0000000.0000000.0000000.0000000.0000000.0000000.0000000.0000000.0000000.0000000.0000000.0000000.0000000.0000000.0000000.0000000.0000000.0000000.0000000.0000000.0000000.0000000.0000000.0000000.0000000.0000000.0000000.0000000.0000000.0000000.0000000.0000000.0000000.0000000.0000000.0000000.0000000.0000000.0000000.0000000.0000000.0000000.0000000.0000000.0000000.0000000.0000000.0000000.0000000.0000000.0000000.0000000.0000000.0000000.0000000.0000000.0000000.0000000.0000000.0000000.0000000.0000000.0000000.0000000.0000000.0000000.0000000.0000000.0000000.0000000.0000000.0000000.0000000.0000000.0000000.0000000.0000000.0000000.0000000.0000000.0000000.0000000.0000000.0000000.0000000.0000000.0000000.0000000.0000000.0000000.0000000.0000000.0000000.0000000.0000000.0000000.0000000.0000003.8272920.0000000.0000000.0000000.0000000.0000000.0000000.0000000.0000000.0000000.0000000.0000000.0000000.0000000.0000000.0000000.0000000.0000000.0000000.0000000.0000000.0000000.0000000.0000000.0000000.0000000.0000000.0000000.0000000.0000000.0000000.0000000.0000000.0000000.0000000.0000000.0000000.0000000.0000000.0000000.0000000.0000000.0000000.0000000.00000018.2911638.034239Time	Current	Voltage
(sec)	A (50mV/300A)	uV
0.000	-0.010	0.009	324.999	330.131	0.000
0.083	-0.010	0.003	324.999	330.131	0.000
0.097	-0.010	0.003	324.999	330.131	0.000
0.180	-0.010	0.010	324.999	330.131	0.000
0.192	-0.010	0.010	324.999	330.131	0.000
0.311	-0.010	-0.001	324.999	330.131	0.000
0.325	-0.010	-0.001	324.999	330.131	0.000
0.409	-0.010	-0.019	324.999	330.131	0.000
0.418	-0.010	-0.019	324.999	330.131	0.000
0.503	-0.010	-0.013	324.999	330.131	0.000
0.512	-0.010	-0.013	324.999	330.131	0.000
0.593	-0.011	-0.034	324.999	330.131	0.000
0.602	-0.011	-0.034	324.999	330.131	0.000
0.682	-0.010	-0.026	324.999	330.131	0.000
0.691	-0.010	-0.026	324.999	330.131	0.000
0.804	-0.010	-0.011	324.999	330.131	0.000
0.813	-0.010	-0.011	324.999	330.131	0.000
0.893	-0.010	-0.029	324.999	330.131	0.000
0.901	-0.010	-0.029	324.999	330.131	0.000
0.982	-0.010	-0.008	324.999	330.131	0.000
0.990	-0.010	-0.008	324.999	330.131	0.000
1.073	-0.010	-0.006	324.999	330.131	0.000
1.082	-0.010	-0.006	324.999	330.131	0.000
1.167	0.194	0.042	324.999	330.131	0.000
1.198	0.194	0.042	324.999	330.131	0.000
1.293	0.304	-0.001	324.999	330.131	0.000
1.309	0.304	-0.001	324.999	330.131	0.000
1.388	0.449	0.003	324.999	330.131	0.000
1.410	0.449	0.003	324.999	330.131	0.000
1.478	0.541	0.006	324.999	330.131	0.000
1.488	0.541	0.006	324.999	330.131	0.000
1.571	0.649	-0.020	324.999	330.131	0.000
1.580	0.649	-0.020	324.999	330.131	0.000
1.662	0.710	-0.047	324.999	330.131	0.000
1.671	0.710	-0.047	324.999	330.131	0.000
1.785	0.781	-0.023	324.999	330.131	0.000
1.793	0.781	-0.023	324.999	330.131	0.000
1.877	0.869	-0.014	324.999	330.131	0.000
1.886	0.869	-0.014	324.999	330.131	0.000
1.971	0.955	0.008	324.999	330.131	0.000
1.979	0.955	0.008	324.999	330.131	0.000
2.061	1.028	-0.028	324.999	330.131	0.000
2.069	1.028	-0.028	324.999	330.131	0.000
2.150	1.104	0.008	324.999	330.131	0.000
2.164	1.104	0.008	324.999	330.131	0.000
2.279	1.163	-0.019	324.999	330.131	0.000
2.291	1.163	-0.019	324.999	330.131	0.000
2.371	1.256	0.003	324.999	330.131	0.000
2.385	1.256	0.003	324.999	330.131	0.000
2.468	1.324	-0.026	324.999	330.131	0.000
2.476	1.324	-0.026	324.999	330.131	0.000
2.560	1.432	0.024	324.999	330.131	0.000
2.569	1.432	0.024	324.999	330.131	0.000
2.651	1.497	-0.007	324.999	330.131	0.000
2.659	1.497	-0.007	324.999	330.131	0.000
2.772	1.570	-0.042	324.999	330.131	0.000
2.781	1.570	-0.042	324.999	330.131	0.000
2.860	1.633	-0.001	324.999	330.131	0.000
2.869	1.633	-0.001	324.999	330.131	0.000
2.951	1.702	-0.017	324.999	330.131	0.000
2.960	1.702	-0.017	324.999	330.131	0.000
3.042	1.744	-0.028	324.999	330.131	0.000
3.050	1.744	-0.028	324.999	330.131	0.000
3.131	1.829	-0.071	324.999	330.131	0.000
3.145	1.829	-0.071	324.999	330.131	0.000
3.258	1.891	-0.047	324.999	330.131	0.000
3.271	1.891	-0.047	324.999	330.131	0.000
3.350	1.959	-0.015	324.999	330.131	0.000
3.365	1.959	-0.015	324.999	330.131	0.000
3.450	2.027	-0.025	324.999	330.131	0.000
3.459	2.027	-0.025	324.999	330.131	0.000
3.540	2.081	-0.018	324.999	330.131	0.000
3.549	2.081	-0.018	324.999	330.131	0.000
3.630	2.139	-0.021	324.999	330.131	0.000
3.639	2.139	-0.021	324.999	330.131	0.000
3.752	2.203	-0.025	324.999	330.131	0.000
3.760	2.203	-0.025	324.999	330.131	0.000
3.840	2.264	-0.028	324.999	330.131	0.000
3.849	2.264	-0.028	324.999	330.131	0.000
3.930	2.322	-0.036	324.999	330.131	0.000
3.939	2.322	-0.036	324.999	330.131	0.000
4.020	2.386	-0.021	324.999	330.131	0.000
4.029	2.386	-0.021	324.999	330.131	0.000
4.109	2.451	-0.015	324.999	330.131	0.000
4.123	2.451	-0.015	324.999	330.131	0.000
4.237	2.512	-0.046	324.999	330.131	0.000
4.249	2.512	-0.046	324.999	330.131	0.000
4.329	2.577	-0.032	324.999	330.131	0.000
4.343	2.577	-0.032	324.999	330.131	0.000
4.427	2.633	-0.024	324.999	330.131	0.000
4.435	2.633	-0.024	324.999	330.131	0.000
4.520	2.699	-0.029	324.999	330.131	0.000
4.528	2.699	-0.029	324.999	330.131	0.000
4.610	2.754	-0.025	324.999	330.131	0.000
4.619	2.754	-0.025	324.999	330.131	0.000
4.731	2.796	-0.048	324.999	330.131	0.000
4.739	2.796	-0.048	324.999	330.131	0.000
4.820	2.875	-0.011	324.999	330.131	0.000
4.829	2.875	-0.011	324.999	330.131	0.000
4.910	2.925	-0.042	324.999	330.131	0.000
4.918	2.925	-0.042	324.999	330.131	0.000
5.001	2.995	-0.061	324.999	330.131	0.000
5.010	2.995	-0.061	324.999	330.131	0.000
5.090	3.034	-0.048	324.999	330.131	0.000
5.104	3.034	-0.048	324.999	330.131	0.000
5.217	3.116	-0.037	324.999	330.131	0.000
5.229	3.116	-0.037	324.999	330.131	0.000
5.309	3.163	-0.028	324.999	330.131	0.000
5.324	3.163	-0.028	324.999	330.131	0.000
5.409	3.249	-0.012	324.999	330.131	0.000
5.417	3.249	-0.012	324.999	330.131	0.000
5.500	3.274	-0.006	324.999	330.131	0.000
5.509	3.274	-0.006	324.999	330.131	0.000
5.589	3.359	0.015	324.999	330.131	0.000
5.598	3.359	0.015	324.999	330.131	0.000
5.712	3.418	0.030	324.999	330.131	0.000
5.721	3.418	0.030	324.999	330.131	0.000
5.800	3.479	0.084	324.999	330.131	0.000
5.808	3.479	0.084	324.999	330.131	0.000
5.890	3.541	0.093	324.999	330.131	0.000
5.898	3.541	0.093	324.999	330.131	0.000
5.979	3.599	0.158	324.999	330.131	0.000
5.987	3.599	0.158	324.999	330.131	0.000
6.069	3.664	0.180	324.999	330.131	0.000
6.078	3.664	0.180	324.999	330.131	0.000
6.193	3.724	0.257	324.999	330.131	0.000
6.206	3.724	0.257	324.999	330.131	0.000
6.289	3.790	0.374	324.999	330.131	0.000
6.302	3.790	0.374	324.999	330.131	0.000
6.386	3.846	0.564	324.999	330.131	0.000
6.399	3.846	0.564	324.999	330.131	0.000
6.479	3.909	0.703	324.999	330.131	0.000
6.488	3.909	0.703	324.999	330.131	0.000
6.569	3.964	0.843	324.999	330.131	0.000
6.578	3.964	0.843	324.999	330.131	0.000
6.690	4.022	1.133	324.999	330.131	0.000
6.699	4.022	1.133	324.999	330.131	0.000
6.779	4.084	1.533	324.999	330.131	0.000
6.787	4.084	1.533	324.999	330.131	0.000
6.869	4.146	2.025	324.999	330.131	0.000
6.878	4.146	2.025	324.999	330.131	0.000
6.959	4.186	2.391	324.999	330.131	0.000
6.969	4.186	2.391	324.999	330.131	0.000
7.049	4.270	3.351	324.999	330.131	0.000
7.057	4.270	3.351	324.999	330.131	0.000
7.169	4.326	4.171	324.999	330.131	0.000
7.182	4.326	4.171	324.999	330.131	0.000
7.265	4.387	5.442	324.999	330.131	0.000
7.278	4.387	5.442	324.999	330.131	0.000
7.359	4.450	6.437	324.999	330.131	0.000
7.372	4.450	6.437	324.999	330.131	0.000
7.454	4.510	7.956	324.999	330.131	0.000
7.462	4.510	7.956	324.999	330.131	0.000
7.549	4.569	9.072	324.999	330.131	0.000
7.557	4.569	9.072	324.999	330.131	0.000
7.669	4.630	10.596	324.999	330.131	0.000
7.678	4.630	10.596	324.999	330.131	0.000
7.758	4.663	11.513	324.999	330.131	0.000
7.767	4.663	11.513	324.999	330.131	0.000
7.848	4.750	13.940	324.999	330.131	0.000
7.857	4.750	13.940	324.999	330.131	0.000
7.938	4.810	15.688	324.999	330.131	0.000
7.946	4.810	15.688	324.999	330.131	0.000
8.028	4.868	17.456	324.999	330.131	0.000
8.037	4.868	17.456	324.999	330.131	0.000
8.149	4.929	19.363	324.999	330.131	0.000
8.163	4.929	19.363	324.999	330.131	0.000
8.247	5.001	21.756	324.999	330.131	0.000
8.260	5.001	21.756	324.999	330.131	0.000
8.344	5.048	23.720	324.999	330.131	0.000
8.357	5.048	23.720	324.999	330.131	0.000
8.437	5.117	25.668	324.999	330.131	0.000
8.447	5.117	25.668	324.999	330.131	0.000
8.527	5.172	27.587	324.999	330.131	0.000
