Sample;MgB2
V-V length(cm);0.500000
Field (T);0.000000
Temp (K);20.000000
Estimated Ic, n0.0000000.0000000.0000000.0000000.0000000.0000000.0000000.0000000.0000000.0000000.0000000.0000000.0000000.0000000.0000000.0000000.0000000.0000000.0000000.0000000.0000000.0000000.0000000.0000000.0000000.0000000.0000000.0000000.0000000.0000000.0000000.0000000.0000000.0000000.0000000.0214860.0000000.0000000.0000000.0000000.0000000.0000000.0000000.0000000.0000000.0000000.0000000.0000000.0000000.0000000.0000000.0000000.0000000.0000000.0000000.0000000.0000000.0000000.0000000.0000000.0000000.0000000.0000000.0000000.0000000.0000000.0000000.0000000.0000000.0000000.0000000.0000000.0000000.000000NaN12.051451Time	Current	Voltage
(sec)	A (50mV/300A)	uV
0.000	-0.010	0.009	324.999	330.131	0.000
0.015	-0.010	0.017	324.999	330.131	0.000
0.047	-0.010	0.017	324.999	330.131	0.000
0.106	-0.010	-0.003	324.999	330.131	0.000
0.115	-0.010	-0.003	324.999	330.131	0.000
0.231	-0.010	0.005	324.999	330.131	0.000
0.240	-0.010	0.005	324.999	330.131	0.000
0.320	-0.010	-0.003	324.999	330.131	0.000
0.329	-0.010	-0.003	324.999	330.131	0.000
0.410	-0.010	0.001	324.999	330.131	0.000
0.418	-0.010	0.001	324.999	330.131	0.000
0.500	-0.010	-0.022	324.999	330.131	0.000
0.509	-0.010	-0.022	324.999	330.131	0.000
0.590	-0.010	-0.008	324.999	330.131	0.000
0.598	-0.010	-0.008	324.999	330.131	0.000
0.711	-0.010	-0.027	324.999	330.131	0.000
0.720	-0.010	-0.027	324.999	330.131	0.000
0.799	-0.010	-0.014	324.999	330.131	0.000
0.813	-0.010	-0.014	324.999	330.131	0.000
0.895	-0.010	-0.017	324.999	330.131	0.000
0.908	-0.010	-0.017	324.999	330.131	0.000
0.989	-0.010	-0.005	324.999	330.131	0.000
1.003	-0.010	-0.005	324.999	330.131	0.000
1.086	-0.010	-0.015	324.999	330.131	0.000
1.095	-0.010	-0.015	324.999	330.131	0.000
1.211	-0.010	-0.004	324.999	330.131	0.000
1.219	-0.010	-0.004	324.999	330.131	0.000
1.300	-0.010	-0.005	324.999	330.131	0.000
1.308	-0.010	-0.005	324.999	330.131	0.000
1.389	-0.010	-0.014	324.999	330.131	0.000
1.398	-0.010	-0.014	324.999	330.131	0.000
1.479	-0.010	-0.018	324.999	330.131	0.000
1.488	-0.010	-0.018	324.999	330.131	0.000
1.569	-0.010	-0.012	324.999	330.131	0.000
1.577	-0.010	-0.012	324.999	330.131	0.000
1.693	0.143	2.460	324.999	330.131	0.000
1.701	0.143	2.460	324.999	330.131	0.000
1.785	0.241	7.378	324.999	330.131	0.000
1.799	0.241	7.378	324.999	330.131	0.000
1.879	0.313	10.119	324.999	330.131	0.000
1.891	0.313	10.119	324.999	330.131	0.000
1.975	0.372	13.603	324.999	330.131	0.000
1.990	0.372	13.603	324.999	330.131	0.000
2.069	0.433	15.940	324.999	330.131	0.000
2.078	0.433	15.940	324.999	330.131	0.000
2.189	0.486	18.518	324.999	330.131	0.000
2.198	0.486	18.518	324.999	330.131	0.000
2.280	0.543	21.330	324.999	330.131	0.000
2.288	0.543	21.330	324.999	330.131	0.000
2.369	0.590	23.714	324.999	330.131	0.000
2.377	0.590	23.714	324.999	330.131	0.000
2.458	0.634	25.846	324.999	330.131	0.000
2.467	0.634	25.846	324.999	330.131	0.000
2.547	0.679	28.055	324.999	330.131	0.000
2.556	0.679	28.055	324.999	330.131	0.000
2.669	0.719	30.037	324.999	330.131	0.000
2.677	0.719	30.037	324.999	330.131	0.000
2.759	0.764	32.325	324.999	330.131	0.000
2.768	0.764	32.325	324.999	330.131	0.000
2.848	0.800	34.097	324.999	330.131	0.000
2.863	0.800	34.097	324.999	330.131	0.000
2.948	0.852	36.749	324.999	330.131	0.000
2.961	0.852	36.749	324.999	330.131	0.000
3.044	0.873	37.814	324.999	330.131	0.000
3.059	0.873	37.814	324.999	330.131	0.000
3.169	0.880	38.086	324.999	330.131	0.000
3.177	0.880	38.086	324.999	330.131	0.000
3.258	0.932	40.698	324.999	330.131	0.000
3.267	0.932	40.698	324.999	330.131	0.000
3.348	0.950	41.605	324.999	330.131	0.000
3.357	0.950	41.605	324.999	330.131	0.000
3.439	0.999	44.060	324.999	330.131	0.000
3.447	0.999	44.060	324.999	330.131	0.000
3.528	1.012	44.745	324.999	330.131	0.000
