Sample;MgB2
V-V length(cm);0.500000
Field (T);0.000000
Temp (K);20.000000
Estimated Ic, n0.0000000.0000000.0000000.0000000.0000000.0000000.0000000.0000000.0000000.0000000.0000000.0000000.0000000.0000000.0000000.0000000.0000000.0000000.0000000.0000000.0000000.0000000.0000000.0000000.0000000.0000000.0000000.0000000.0000000.0000000.0000000.0000000.0000000.0000000.0000000.0000000.0000000.0000000.0000000.0000000.0000000.0000000.0000000.0000000.0000000.0000000.0000000.0000000.0000000.0000000.0000000.0000000.0000000.0000000.0000000.0000000.0000000.0000000.0000000.0000000.0000000.0000000.0000000.0000000.0000000.0000000.0000000.0000000.0000000.0000000.0000000.0000000.0000000.0000000.0000000.0000000.0000000.0000000.0000000.0000000.0000000.0000000.0000000.0000000.0000000.0000000.0000000.0000000.0000000.0000000.0000000.0000000.0000000.0000000.0000000.0000000.0000000.0000000.0000000.0000000.0000000.0000000.0000000.0000000.0000000.0000000.0000000.0000000.0000000.0000000.0000000.0000000.0000000.0000000.0000008.4228870.0000000.0000000.0000000.0000000.0000000.0000000.0000000.0000000.0000000.0000000.0000000.0000000.0000000.0000000.0000000.0000000.0000000.0000000.0000000.0000000.0000000.0000000.0000000.0000000.0000000.00000020.4898477.030483Time	Current	Voltage
(sec)	A (50mV/300A)	uV
0.000	-0.011	0.007	324.999	330.131	0.000
0.087	-0.011	0.017	324.999	330.131	0.000
0.096	-0.011	0.017	324.999	330.131	0.000
0.175	-0.010	0.012	324.999	330.131	0.000
0.184	-0.010	0.012	324.999	330.131	0.000
0.264	-0.010	0.023	324.999	330.131	0.000
0.273	-0.010	0.023	324.999	330.131	0.000
0.355	-0.010	0.022	324.999	330.131	0.000
0.365	-0.010	0.022	324.999	330.131	0.000
0.445	-0.010	-0.014	324.999	330.131	0.000
0.453	-0.010	-0.014	324.999	330.131	0.000
0.565	-0.010	-0.003	324.999	330.131	0.000
0.574	-0.010	-0.003	324.999	330.131	0.000
0.654	0.183	0.074	324.999	330.131	0.000
0.663	0.183	0.074	324.999	330.131	0.000
0.745	0.514	0.032	324.999	330.131	0.000
0.759	0.514	0.032	324.999	330.131	0.000
0.841	0.699	0.004	324.999	330.131	0.000
0.854	0.699	0.004	324.999	330.131	0.000
0.935	0.925	0.035	324.999	330.131	0.000
0.949	0.925	0.035	324.999	330.131	0.000
1.063	1.140	0.066	324.999	330.131	0.000
1.071	1.140	0.066	324.999	330.131	0.000
1.155	1.346	0.075	324.999	330.131	0.000
1.164	1.346	0.075	324.999	330.131	0.000
1.245	1.525	0.068	324.999	330.131	0.000
1.254	1.525	0.068	324.999	330.131	0.000
1.336	1.681	0.042	324.999	330.131	0.000
1.345	1.681	0.042	324.999	330.131	0.000
1.425	1.876	0.036	324.999	330.131	0.000
1.433	1.876	0.036	324.999	330.131	0.000
1.546	2.024	0.021	324.999	330.131	0.000
1.555	2.024	0.021	324.999	330.131	0.000
1.636	2.224	0.070	324.999	330.131	0.000
1.645	2.224	0.070	324.999	330.131	0.000
1.725	2.347	0.049	324.999	330.131	0.000
1.739	2.347	0.049	324.999	330.131	0.000
1.822	2.562	0.037	324.999	330.131	0.000
1.835	2.562	0.037	324.999	330.131	0.000
1.915	2.725	0.045	324.999	330.131	0.000
1.929	2.725	0.045	324.999	330.131	0.000
2.042	2.887	0.038	324.999	330.131	0.000
2.051	2.887	0.038	324.999	330.131	0.000
2.135	3.033	0.076	324.999	330.131	0.000
2.144	3.033	0.076	324.999	330.131	0.000
2.225	3.208	0.051	324.999	330.131	0.000
2.234	3.208	0.051	324.999	330.131	0.000
2.316	3.362	0.036	324.999	330.131	0.000
2.325	3.362	0.036	324.999	330.131	0.000
2.406	3.511	0.048	324.999	330.131	0.000
2.415	3.511	0.048	324.999	330.131	0.000
2.526	3.675	0.021	324.999	330.131	0.000
2.535	3.675	0.021	324.999	330.131	0.000
2.616	3.834	0.075	324.999	330.131	0.000
2.625	3.834	0.075	324.999	330.131	0.000
2.706	3.978	0.031	324.999	330.131	0.000
2.715	3.978	0.031	324.999	330.131	0.000
2.796	4.156	0.031	324.999	330.131	0.000
2.810	4.156	0.031	324.999	330.131	0.000
2.893	4.294	0.038	324.999	330.131	0.000
2.906	4.294	0.038	324.999	330.131	0.000
3.020	4.443	0.048	324.999	330.131	0.000
3.033	4.443	0.048	324.999	330.131	0.000
3.117	4.614	0.063	324.999	330.131	0.000
3.125	4.614	0.063	324.999	330.131	0.000
3.206	4.760	0.060	324.999	330.131	0.000
3.215	4.760	0.060	324.999	330.131	0.000
3.296	4.901	0.036	324.999	330.131	0.000
3.305	4.901	0.036	324.999	330.131	0.000
3.386	5.037	0.027	324.999	330.131	0.000
3.395	5.037	0.027	324.999	330.131	0.000
3.508	5.208	-0.003	324.999	330.131	0.000
3.516	5.208	-0.003	324.999	330.131	0.000
3.597	5.363	0.067	324.999	330.131	0.000
3.607	5.363	0.067	324.999	330.131	0.000
3.687	5.509	0.042	324.999	330.131	0.000
3.695	5.509	0.042	324.999	330.131	0.000
3.777	5.615	0.013	324.999	330.131	0.000
3.791	5.615	0.013	324.999	330.131	0.000
3.873	5.818	0.003	324.999	330.131	0.000
3.886	5.818	0.003	324.999	330.131	0.000
3.998	5.974	0.036	324.999	330.131	0.000
4.012	5.974	0.036	324.999	330.131	0.000
4.094	6.119	0.082	324.999	330.131	0.000
4.103	6.119	0.082	324.999	330.131	0.000
4.187	6.284	0.083	324.999	330.131	0.000
4.195	6.284	0.083	324.999	330.131	0.000
4.277	6.423	0.010	324.999	330.131	0.000
4.285	6.423	0.010	324.999	330.131	0.000
4.367	6.592	0.037	324.999	330.131	0.000
4.375	6.592	0.037	324.999	330.131	0.000
4.489	6.718	0.028	324.999	330.131	0.000
4.498	6.718	0.028	324.999	330.131	0.000
4.578	6.878	0.070	324.999	330.131	0.000
4.586	6.878	0.070	324.999	330.131	0.000
4.667	7.027	0.023	324.999	330.131	0.000
4.676	7.027	0.023	324.999	330.131	0.000
4.756	7.197	0.050	324.999	330.131	0.000
4.770	7.197	0.050	324.999	330.131	0.000
4.854	7.332	0.022	324.999	330.131	0.000
4.867	7.332	0.022	324.999	330.131	0.000
4.978	7.514	0.070	324.999	330.131	0.000
4.993	7.514	0.070	324.999	330.131	0.000
5.075	7.632	0.095	324.999	330.131	0.000
5.083	7.632	0.095	324.999	330.131	0.000
5.168	7.810	0.136	324.999	330.131	0.000
5.177	7.810	0.136	324.999	330.131	0.000
5.257	7.937	0.158	324.999	330.131	0.000
5.266	7.937	0.158	324.999	330.131	0.000
5.348	8.106	0.218	324.999	330.131	0.000
5.357	8.106	0.218	324.999	330.131	0.000
5.468	8.216	0.279	324.999	330.131	0.000
5.477	8.216	0.279	324.999	330.131	0.000
5.558	8.409	0.484	324.999	330.131	0.000
5.567	8.409	0.484	324.999	330.131	0.000
5.648	8.544	0.644	324.999	330.131	0.000
5.657	8.544	0.644	324.999	330.131	0.000
5.739	8.716	0.858	324.999	330.131	0.000
5.752	8.716	0.858	324.999	330.131	0.000
5.835	8.821	1.248	324.999	330.131	0.000
5.847	8.821	1.248	324.999	330.131	0.000
5.959	9.030	1.904	324.999	330.131	0.000
5.972	9.030	1.904	324.999	330.131	0.000
6.055	9.114	2.543	324.999	330.131	0.000
6.063	9.114	2.543	324.999	330.131	0.000
6.145	9.312	3.770	324.999	330.131	0.000
6.154	9.312	3.770	324.999	330.131	0.000
6.239	9.445	4.822	324.999	330.131	0.000
6.247	9.445	4.822	324.999	330.131	0.000
6.328	9.621	6.837	324.999	330.131	0.000
6.337	9.621	6.837	324.999	330.131	0.000
6.450	9.776	9.188	324.999	330.131	0.000
6.459	9.776	9.188	324.999	330.131	0.000
6.539	9.917	11.758	324.999	330.131	0.000
6.548	9.917	11.758	324.999	330.131	0.000
6.629	10.064	14.874	324.999	330.131	0.000
6.638	10.064	14.874	324.999	330.131	0.000
6.720	10.227	18.729	324.999	330.131	0.000
6.728	10.227	18.729	324.999	330.131	0.000
6.809	10.378	22.738	324.999	330.131	0.000
6.825	10.378	22.738	324.999	330.131	0.000
6.942	10.549	27.614	324.999	330.131	0.000
