Sample;MgB2
V-V length(cm);0.500000
Field (T);0.000000
Temp (K);20.000000
Estimated Ic, n0.0000000.0000000.0000000.0000000.0000000.0000000.0000000.0000000.0000000.0000000.0000000.0000000.0000000.0000000.0000000.0000000.0000000.0000000.0000000.0000000.0000000.0000000.0000000.0000000.0000000.0000000.0000000.0000000.0000000.0000000.0000000.0000000.0000000.0000000.0000000.0000000.0000000.0000000.0000000.0000000.0000000.0000000.0000000.0000000.0000000.0000000.0000000.0000000.0000000.0000000.0000000.0000000.0000000.0000000.0000000.0000000.0000000.0000000.0000000.0000000.0000000.0000000.0000000.0000000.0000000.0000000.0000000.0000000.0000000.0000000.0000000.0000000.0000000.0000000.0000000.0000000.0000000.0000000.0000000.0000000.0000000.0000000.0000000.0000000.0000000.0000000.0000000.0000000.0000000.0000000.0000000.0000000.0000000.0000000.0000000.0000000.0000000.0000000.0000000.0000000.0000000.0000000.0000000.0000000.0000000.0000000.0000000.0000000.0000000.0000000.0000000.0000000.0000000.0000000.0000000.0000000.0000000.0000000.0000000.0000000.0000000.0000000.0000000.0000000.0000000.0000000.0000000.0000000.0000000.0000000.0000000.0000000.0000000.0000000.0000000.0000000.0000000.0000000.0000000.0000000.0000000.0000000.0000000.0000000.0000000.0000000.0000000.0000000.0000000.0000000.0000000.0000000.0000000.0000000.0000000.0000000.0000000.0000000.0000000.0000000.0000000.0000000.0000000.0000000.0000000.0000000.0000000.0000000.0000000.0000000.0000000.0000000.0000000.0000000.0000000.0000000.0000000.0000000.0000000.0000000.0000000.0000000.0000000.0000000.0000000.0000000.0000000.0000000.0000000.0000000.0000000.0000000.0000000.0000000.0000000.0000000.0000000.0000000.0000000.0000000.0000000.0000000.0000000.0000000.0000000.0000000.0000000.0000000.0000000.0000000.0000000.0000000.0000000.0000000.0000000.0000000.0000000.0000000.0000000.0000000.0000000.0000000.0000000.0000000.0000000.0000000.0000000.0000000.0000000.0000000.0000000.0000000.0000000.0000000.0000000.0000000.0000000.0000000.0000000.0000000.00000072.0202430.0000000.0000000.0000000.0000000.0000000.0000000.0000000.0000000.0000000.0000000.0000000.0000000.0000000.0000000.0000000.0000000.0000000.0000000.0000000.0000000.0000000.0000000.0000000.0000000.0000000.0000000.0000000.0000000.0000000.0000000.0000000.0000000.0000000.0000000.0000000.0000000.0000000.00000015.4161294.016954Time	Current	Voltage
(sec)	A (50mV/300A)	uV
0.000	-0.010	-0.010	324.999	330.131	0.000
0.051	-0.010	0.001	324.999	330.131	0.000
0.060	-0.010	0.001	324.999	330.131	0.000
0.141	-0.010	0.011	324.999	330.131	0.000
0.150	-0.010	0.011	324.999	330.131	0.000
0.261	-0.010	0.019	324.999	330.131	0.000
0.270	-0.010	0.019	324.999	330.131	0.000
0.350	0.964	0.097	324.999	330.131	0.000
0.359	0.964	0.097	324.999	330.131	0.000
0.440	1.675	0.049	324.999	330.131	0.000
0.449	1.675	0.049	324.999	330.131	0.000
0.530	2.361	0.065	324.999	330.131	0.000
0.544	2.361	0.065	324.999	330.131	0.000
0.626	3.019	0.046	324.999	330.131	0.000
0.639	3.019	0.046	324.999	330.131	0.000
0.751	3.707	0.048	324.999	330.131	0.000
0.765	3.707	0.048	324.999	330.131	0.000
0.848	4.331	0.097	324.999	330.131	0.000
0.857	4.331	0.097	324.999	330.131	0.000
0.940	5.002	0.092	324.999	330.131	0.000
0.949	5.002	0.092	324.999	330.131	0.000
1.030	5.586	0.053	324.999	330.131	0.000
1.039	5.586	0.053	324.999	330.131	0.000
1.120	6.237	0.003	324.999	330.131	0.000
1.128	6.237	0.003	324.999	330.131	0.000
1.241	6.871	0.010	324.999	330.131	0.000
1.250	6.871	0.010	324.999	330.131	0.000
1.330	7.498	0.064	324.999	330.131	0.000
1.338	7.498	0.064	324.999	330.131	0.000
1.419	8.126	0.010	324.999	330.131	0.000
1.428	8.126	0.010	324.999	330.131	0.000
1.510	8.633	0.014	324.999	330.131	0.000
1.524	8.633	0.014	324.999	330.131	0.000
1.606	9.364	0.008	324.999	330.131	0.000
1.619	9.364	0.008	324.999	330.131	0.000
1.737	10.010	0.025	324.999	330.131	0.000
1.751	10.010	0.025	324.999	330.131	0.000
1.836	10.630	0.057	324.999	330.131	0.000
1.845	10.630	0.057	324.999	330.131	0.000
1.929	11.096	0.057	324.999	330.131	0.000
1.939	11.096	0.057	324.999	330.131	0.000
2.020	11.790	0.037	324.999	330.131	0.000
2.028	11.790	0.037	324.999	330.131	0.000
2.109	12.177	-0.011	324.999	330.131	0.000
2.118	12.177	-0.011	324.999	330.131	0.000
2.231	13.021	-0.002	324.999	330.131	0.000
2.240	13.021	-0.002	324.999	330.131	0.000
2.319	13.555	0.022	324.999	330.131	0.000
2.329	13.555	0.022	324.999	330.131	0.000
2.410	14.227	0.003	324.999	330.131	0.000
2.419	14.227	0.003	324.999	330.131	0.000
2.500	14.847	0.019	324.999	330.131	0.000
2.509	14.847	0.019	324.999	330.131	0.000
2.590	15.512	0.056	324.999	330.131	0.000
2.603	15.512	0.056	324.999	330.131	0.000
2.717	16.083	0.039	324.999	330.131	0.000
2.730	16.083	0.039	324.999	330.131	0.000
2.809	16.735	0.048	324.999	330.131	0.000
2.823	16.735	0.048	324.999	330.131	0.000
2.905	17.349	0.036	324.999	330.131	0.000
2.914	17.349	0.036	324.999	330.131	0.000
3.000	17.985	0.036	324.999	330.131	0.000
3.009	17.985	0.036	324.999	330.131	0.000
3.090	18.527	0.014	324.999	330.131	0.000
3.099	18.527	0.014	324.999	330.131	0.000
3.210	19.159	0.008	324.999	330.131	0.000
3.218	19.159	0.008	324.999	330.131	0.000
3.299	19.745	0.031	324.999	330.131	0.000
3.307	19.745	0.031	324.999	330.131	0.000
3.388	20.376	0.024	324.999	330.131	0.000
3.397	20.376	0.024	324.999	330.131	0.000
3.478	20.986	-0.009	324.999	330.131	0.000
3.487	20.986	-0.009	324.999	330.131	0.000
3.568	21.470	-0.024	324.999	330.131	0.000
3.582	21.470	-0.024	324.999	330.131	0.000
3.696	22.198	0.007	324.999	330.131	0.000
3.711	22.198	0.007	324.999	330.131	0.000
3.789	22.826	0.042	324.999	330.131	0.000
3.802	22.826	0.042	324.999	330.131	0.000
3.885	23.391	0.050	324.999	330.131	0.000
3.894	23.391	0.050	324.999	330.131	0.000
3.978	23.859	0.015	324.999	330.131	0.000
3.987	23.859	0.015	324.999	330.131	0.000
4.068	24.602	-0.021	324.999	330.131	0.000
4.078	24.602	-0.021	324.999	330.131	0.000
4.189	25.083	0.001	324.999	330.131	0.000
4.198	25.083	0.001	324.999	330.131	0.000
4.279	25.793	0.048	324.999	330.131	0.000
4.287	25.793	0.048	324.999	330.131	0.000
4.368	26.270	0.007	324.999	330.131	0.000
4.376	26.270	0.007	324.999	330.131	0.000
4.459	27.025	0.012	324.999	330.131	0.000
4.467	27.025	0.012	324.999	330.131	0.000
4.548	27.596	0.019	324.999	330.131	0.000
4.562	27.596	0.019	324.999	330.131	0.000
4.676	28.223	0.035	324.999	330.131	0.000
4.688	28.223	0.035	324.999	330.131	0.000
4.769	28.860	0.042	324.999	330.131	0.000
4.783	28.860	0.042	324.999	330.131	0.000
4.864	29.439	0.056	324.999	330.131	0.000
4.873	29.439	0.056	324.999	330.131	0.000
4.957	30.073	0.045	324.999	330.131	0.000
4.967	30.073	0.045	324.999	330.131	0.000
5.048	30.711	0.062	324.999	330.131	0.000
5.056	30.711	0.062	324.999	330.131	0.000
5.169	31.254	0.042	324.999	330.131	0.000
5.178	31.254	0.042	324.999	330.131	0.000
5.258	31.903	0.083	324.999	330.131	0.000
5.266	31.903	0.083	324.999	330.131	0.000
5.348	32.503	0.071	324.999	330.131	0.000
5.356	32.503	0.071	324.999	330.131	0.000
5.438	33.130	0.050	324.999	330.131	0.000
5.446	33.130	0.050	324.999	330.131	0.000
5.528	33.721	0.059	324.999	330.131	0.000
5.541	33.721	0.059	324.999	330.131	0.000
5.656	34.203	0.081	324.999	330.131	0.000
5.670	34.203	0.081	324.999	330.131	0.000
5.757	35.039	0.139	324.999	330.131	0.000
5.771	35.039	0.139	324.999	330.131	0.000
5.854	35.554	0.128	324.999	330.131	0.000
5.863	35.554	0.128	324.999	330.131	0.000
5.947	36.178	0.132	324.999	330.131	0.000
5.955	36.178	0.132	324.999	330.131	0.000
6.037	36.660	0.113	324.999	330.131	0.000
6.046	36.660	0.113	324.999	330.131	0.000
6.161	37.333	0.110	324.999	330.131	0.000
6.170	37.333	0.110	324.999	330.131	0.000
6.247	37.872	0.151	324.999	330.131	0.000
6.256	37.872	0.151	324.999	330.131	0.000
6.337	38.547	0.113	324.999	330.131	0.000
6.345	38.547	0.113	324.999	330.131	0.000
6.427	38.927	0.105	324.999	330.131	0.000
6.436	38.927	0.105	324.999	330.131	0.000
6.517	39.773	0.078	324.999	330.131	0.000
6.531	39.773	0.078	324.999	330.131	0.000
6.645	40.362	0.114	324.999	330.131	0.000
6.657	40.362	0.114	324.999	330.131	0.000
6.737	41.005	0.150	324.999	330.131	0.000
6.751	41.005	0.150	324.999	330.131	0.000
6.834	41.482	0.169	324.999	330.131	0.000
6.843	41.482	0.169	324.999	330.131	0.000
6.926	42.211	0.143	324.999	330.131	0.000
6.935	42.211	0.143	324.999	330.131	0.000
7.017	42.785	0.162	324.999	330.131	0.000
7.026	42.785	0.162	324.999	330.131	0.000
7.138	43.360	0.127	324.999	330.131	0.000
7.147	43.360	0.127	324.999	330.131	0.000
7.227	43.988	0.174	324.999	330.131	0.000
7.236	43.988	0.174	324.999	330.131	0.000
7.316	44.594	0.195	324.999	330.131	0.000
7.326	44.594	0.195	324.999	330.131	0.000
7.407	45.209	0.177	324.999	330.131	0.000
7.416	45.209	0.177	324.999	330.131	0.000
7.497	45.727	0.136	324.999	330.131	0.000
7.506	45.727	0.136	324.999	330.131	0.000
7.618	46.453	0.096	324.999	330.131	0.000
7.632	46.453	0.096	324.999	330.131	0.000
7.717	47.111	0.175	324.999	330.131	0.000
7.731	47.111	0.175	324.999	330.131	0.000
7.813	47.671	0.186	324.999	330.131	0.000
7.828	47.671	0.186	324.999	330.131	0.000
7.913	48.136	0.174	324.999	330.131	0.000
7.922	48.136	0.174	324.999	330.131	0.000
8.007	48.905	0.167	324.999	330.131	0.000
8.016	48.905	0.167	324.999	330.131	0.000
8.127	49.379	0.148	324.999	330.131	0.000
8.136	49.379	0.148	324.999	330.131	0.000
8.217	50.070	0.178	324.999	330.131	0.000
8.225	50.070	0.178	324.999	330.131	0.000
8.306	50.451	0.156	324.999	330.131	0.000
8.314	50.451	0.156	324.999	330.131	0.000
8.396	51.294	0.150	324.999	330.131	0.000
8.405	51.294	0.150	324.999	330.131	0.000
8.486	51.890	0.154	324.999	330.131	0.000
8.495	51.890	0.154	324.999	330.131	0.000
8.608	52.494	0.119	324.999	330.131	0.000
8.622	52.494	0.119	324.999	330.131	0.000
8.707	53.184	0.158	324.999	330.131	0.000
8.720	53.184	0.158	324.999	330.131	0.000
8.803	53.693	0.159	324.999	330.131	0.000
8.817	53.693	0.159	324.999	330.131	0.000
8.896	54.318	0.170	324.999	330.131	0.000
8.904	54.318	0.170	324.999	330.131	0.000
8.985	54.932	0.189	324.999	330.131	0.000
8.994	54.932	0.189	324.999	330.131	0.000
9.102	55.511	0.139	324.999	330.131	0.000
9.111	55.511	0.139	324.999	330.131	0.000
9.195	56.129	0.200	324.999	330.131	0.000
9.204	56.129	0.200	324.999	330.131	0.000
9.285	56.705	0.133	324.999	330.131	0.000
9.294	56.705	0.133	324.999	330.131	0.000
9.376	57.194	0.111	324.999	330.131	0.000
9.384	57.194	0.111	324.999	330.131	0.000
9.465	57.929	0.094	324.999	330.131	0.000
9.474	57.929	0.094	324.999	330.131	0.000
9.586	58.546	0.151	324.999	330.131	0.000
9.600	58.546	0.151	324.999	330.131	0.000
9.685	59.235	0.207	324.999	330.131	0.000
9.698	59.235	0.207	324.999	330.131	0.000
9.782	59.518	0.181	324.999	330.131	0.000
9.796	59.518	0.181	324.999	330.131	0.000
9.875	60.426	0.176	324.999	330.131	0.000
9.883	60.426	0.176	324.999	330.131	0.000
9.965	61.016	0.176	324.999	330.131	0.000
9.974	61.016	0.176	324.999	330.131	0.000
10.086	61.638	0.147	324.999	330.131	0.000
10.095	61.638	0.147	324.999	330.131	0.000
10.175	62.073	0.168	324.999	330.131	0.000
10.185	62.073	0.168	324.999	330.131	0.000
10.265	62.823	0.189	324.999	330.131	0.000
10.273	62.823	0.189	324.999	330.131	0.000
10.354	63.415	0.254	324.999	330.131	0.000
10.363	63.415	0.254	324.999	330.131	0.000
10.444	64.044	0.097	324.999	330.131	0.000
10.453	64.044	0.097	324.999	330.131	0.000
10.565	64.648	0.126	324.999	330.131	0.000
10.580	64.648	0.126	324.999	330.131	0.000
10.664	65.336	0.244	324.999	330.131	0.000
10.677	65.336	0.244	324.999	330.131	0.000
10.761	65.853	0.189	324.999	330.131	0.000
10.775	65.853	0.189	324.999	330.131	0.000
10.854	66.494	0.205	324.999	330.131	0.000
10.862	66.494	0.205	324.999	330.131	0.000
10.945	67.071	0.144	324.999	330.131	0.000
10.953	67.071	0.144	324.999	330.131	0.000
11.068	67.649	0.110	324.999	330.131	0.000
11.077	67.649	0.110	324.999	330.131	0.000
11.161	68.243	0.260	324.999	330.131	0.000
11.169	68.243	0.260	324.999	330.131	0.000
11.254	68.907	0.251	324.999	330.131	0.000
11.263	68.907	0.251	324.999	330.131	0.000
11.344	69.479	0.325	324.999	330.131	0.000
11.353	69.479	0.325	324.999	330.131	0.000
11.434	69.961	0.357	324.999	330.131	0.000
11.444	69.961	0.357	324.999	330.131	0.000
11.555	70.684	0.333	324.999	330.131	0.000
11.568	70.684	0.333	324.999	330.131	0.000
11.654	71.327	0.490	324.999	330.131	0.000
11.667	71.327	0.490	324.999	330.131	0.000
11.750	71.887	0.463	324.999	330.131	0.000
11.764	71.887	0.463	324.999	330.131	0.000
11.994	72.676	0.682	324.999	330.131	0.000
12.003	72.676	0.682	324.999	330.131	0.000
12.083	73.064	0.621	324.999	330.131	0.000
12.092	73.064	0.621	324.999	330.131	0.000
12.173	73.689	0.728	324.999	330.131	0.000
12.182	73.689	0.728	324.999	330.131	0.000
12.263	74.297	0.798	324.999	330.131	0.000
12.272	74.297	0.798	324.999	330.131	0.000
12.353	74.904	0.983	324.999	330.131	0.000
12.362	74.904	0.983	324.999	330.131	0.000
12.474	75.388	1.146	324.999	330.131	0.000
12.483	75.388	1.146	324.999	330.131	0.000
12.563	76.154	1.638	324.999	330.131	0.000
12.576	76.154	1.638	324.999	330.131	0.000
12.659	76.524	1.827	324.999	330.131	0.000
12.672	76.524	1.827	324.999	330.131	0.000
12.752	77.409	2.334	324.999	330.131	0.000
12.766	77.409	2.334	324.999	330.131	0.000
12.849	77.961	3.006	324.999	330.131	0.000
12.858	77.961	3.006	324.999	330.131	0.000
12.970	78.515	3.690	324.999	330.131	0.000
12.979	78.515	3.690	324.999	330.131	0.000
13.062	78.956	4.345	324.999	330.131	0.000
13.071	78.956	4.345	324.999	330.131	0.000
13.152	79.780	6.337	324.999	330.131	0.000
13.161	79.780	6.337	324.999	330.131	0.000
13.242	80.372	8.221	324.999	330.131	0.000
13.251	80.372	8.221	324.999	330.131	0.000
13.333	80.984	10.521	324.999	330.131	0.000
13.341	80.984	10.521	324.999	330.131	0.000
13.453	81.580	13.211	324.999	330.131	0.000
13.462	81.580	13.211	324.999	330.131	0.000
13.543	82.184	16.656	324.999	330.131	0.000
13.557	82.184	16.656	324.999	330.131	0.000
13.639	82.789	20.913	324.999	330.131	0.000
13.652	82.789	20.913	324.999	330.131	0.000
13.731	83.443	24.546	324.999	330.131	0.000
13.745	83.443	24.546	324.999	330.131	0.000
13.828	84.003	29.763	324.999	330.131	0.000
